# Instrument line shape
# Line start [nm]: 311.3	Line End [nm]: 314.6
# Wavelength [nm]	Intensity [DN]
0.000000000000000000e+00 5.584345961401001451e-03
8.311713590001090779e-02 4.378127233738384437e-03
1.662176980000253934e-01 6.031093638313079867e-03
2.493016863000434569e-01 7.773409578270191501e-03
3.323691008000082547e-01 1.094531808434596326e-02
4.154199415000334739e-01 1.594889206576126026e-02
4.984542084000054274e-01 2.702823445318084869e-02
5.814719014999809588e-01 5.048248749106504230e-02
6.644730208000169114e-01 8.948355968548964146e-02
7.474575662999995984e-01 1.358559685489635627e-01
8.304255379999858633e-01 2.164939242315939982e-01
9.133769359000325494e-01 3.158059328091494256e-01
9.963117599999691265e-01 4.489367405289492741e-01
1.079230010300022968e+00 5.681290207290922156e-01
1.162131686800023544e+00 6.737401715511081024e-01
1.245016789500027699e+00 7.437455325232309455e-01
1.327885318400035430e+00 7.884203002144388739e-01
1.410737273500046740e+00 7.937812723373839363e-01
1.493572654800004784e+00 8.224177984274482212e-01
1.576391462300023250e+00 8.677180128663330994e-01
1.659193696000045293e+00 9.403591851322372630e-01
1.741979355900014070e+00 1.000000000000000000e+00
1.824748441999986426e+00 9.932094353109364171e-01
1.907500954300019202e+00 9.295925661186562605e-01
1.990236892799998714e+00 8.108470335954252040e-01
2.072956257499981803e+00 6.355432451751251710e-01
2.155659048400025313e+00 4.217744817726948314e-01
2.238345265500015557e+00 2.482576840600428936e-01
2.321014908800066223e+00 1.381790564689063805e-01
2.403667978300006780e+00 7.594710507505360308e-02
2.486304474000064602e+00 4.016261615439600113e-02
2.568924395900012314e+00 2.166726233023588341e-02
2.651527744000020448e+00 1.769120800571837016e-02
2.734114518300032159e+00 1.460864903502501720e-02
2.816684718800047449e+00 1.103466761972837773e-02
2.899238345500009473e+00 1.090064331665475603e-02
2.981775398400031918e+00 9.515725518227305738e-03
3.064295877500001097e+00 7.952108649035024776e-03
3.146799782800030698e+00 6.701215153681199660e-03
3.229287114300007033e+00 7.058613295210864474e-03
